{
  "resourceType": "Bundle",
  "id": "9e06348e-b9dd-40bf-9808-8d2e928989dc",
  "identifier": {
    "system": "urn:ietf:rfc:4122",
    "value": "d2f9f649-5555-4826-868b-84e015c1f1be"
  },
  "type": "document",
  "timestamp": "2023-10-23T00:00:00.000+08:00",
  "entry": [
    {
      "fullUrl": "Composition/30551ce1-5a28-4356-b684-1e639094ad4d",
      "resource": {
        "resourceType": "Composition",
        "id": "30551ce1-5a28-4356-b684-1e639094ad4d",
        "identifier": {
          "system": "urn:oid:2.16.724.4.8.10.200.10",
          "value": "3f69e0a5-2177-4540-baab-7a5d0877428f"
        },
        "status": "final",
        "type": {
          "coding": [
            {
              "system": "https://ehealth.gov.hk/FHIR",
              "display": "Hong Kong eHR Healthcare Document"
            }
          ],
          "text": "Hong Kong eHR Healthcare Document"
        },
        "subject": {
          "reference": "Patient/d58dd75b-cf09-4a1c-b913-c9e867f27616"
        },
        "date": "2023-10-23T00:00:00.000+08:00",
        "author": [
          {
            "reference": "Organization/3b3703a9-7a26-427c-9352-4e41f046d85e"
          }
        ],
        "title": "Hong Kong eHR Healthcare Document",
        "section": [
          {
            "title": "Medical Certificate Records",
            "code": {
              "coding": [
                {
                  "system": "https://ehealth.gov.hk/FHIR/datadomain",
                  "code": "MEDCER",
                  "display": "Medical Certificate"
                }
              ],
              "text": "Medical Certificate"
            },
            "entry": [
              {
                "extension": [
                  {
                    "url": "https://ehealth.gov.hk/FHIR/99999999-RecordCreateDatetime",
                    "valueDateTime": "2023-10-22T00:00:00.000+08:00"
                  },
                  {
                    "url": "https://ehealth.gov.hk/FHIR/99999999-RecordCreateInstIdentifier",
                    "valueString": "1234567891"
                  },
                  {
                    "url": "https://ehealth.gov.hk/FHIR/99999999-RecordCreateInstName",
                    "valueString": "Hong Kong Hospital"
                  },
                  {
                    "url": "https://ehealth.gov.hk/FHIR/99999999-RecordLastUpdateDatetime",
                    "valueDateTime": "2023-10-22T00:00:00.000+08:00"
                  },
                  {
                    "url": "https://ehealth.gov.hk/FHIR/99999999-RecordUpdateInstIdentifier",
                    "valueString": "1234567891"
                  },
                  {
                    "url": "https://ehealth.gov.hk/FHIR/99999999-RecordUpdateInstName",
                    "valueString": "Hong Kong Hospital"
                  },
                  {
                    "url": "https://ehealth.gov.hk/FHIR/99999999-TransactionDateTime",
                    "valueDateTime": "2023-10-22T00:00:00.000+08:00"
                  },
                  {
                    "url": "https://ehealth.gov.hk/FHIR/99999999-TransactonType",
                    "valueString": "U"
                  },
                  {
                    "url": "https://ehealth.gov.hk/FHIR/99999999-LastUpdateDateTime",
                    "valueDateTime": "2023-10-22T00:00:00.000+08:00"
                  },
                  {
                    "url": "https://ehealth.gov.hk/FHIR/99999999-ComplianceLevel",
                    "valueString": "1"
                  },
                  {
                    "url": "https://ehealth.gov.hk/FHIR/99999999-DomainVersion",
                    "valueString": "eHRSS-1.1.0"
                  },
                  {
                    "url": "https://ehealth.gov.hk/FHIR/99999999-UploadMode",
                    "valueString": "NBL"
                  }
                ],
                "reference": "DocumentReference/1832473e-2fe0-452d-abe9-3cdb9879522f",
                "identifier": {
                  "system": "https://ehealth.gov.hk/FHIR/HCP/local/Recordkey",
                  "value": "MEDCER-001"
                }
              }
            ]
          }
        ]
      }
    },
    {
      "fullUrl": "Organization/3b3703a9-7a26-427c-9352-4e41f046d85e",
      "resource": {
        "resourceType": "Organization",
        "id": "3b3703a9-7a26-427c-9352-4e41f046d85e",
        "identifier": [
          {
            "system": "https://ehealth.gov.hk/FHIR/pvdr",
            "value": "8840188537"
          }
        ],
        "name": "Hong Kong Hospital",
        "alias": [
          "HKH"
        ]
      }
    },
    {
      "fullUrl": "DocumentReference/1832473e-2fe0-452d-abe9-3cdb9879522f",
      "resource": {
        "resourceType": "DocumentReference",
        "id": "1832473e-2fe0-452d-abe9-3cdb9879522f",
        "extension": [
          {
            "url": "https://ehealth.gov.hk/FHIR/1009113-MedCertRemark",
            "valueString": "Dec 2023 Sick leave Certificate"
          },
          {
            "url": "https://ehealth.gov.hk/FHIR/1009101-StartDateDur",
            "valueString": "AM"
          },
          {
            "url": "https://ehealth.gov.hk/FHIR/1009103-EndDateDur",
            "valueString": "PM"
          }
        ],
        "status": "current",
        "type": {
          "coding": [
            {
              "code": "1009030"
            }
          ]
        },
        "category": [
          {
            "coding": [
              {
                "system": "https://ehealth.gov.hk/FHIR/TypeOfClinicalSetting",
                "code": "OP",
                "display": "Outpatient record"
              }
            ],
            "text": "Outpatient record"
          }
        ],
        "author": [
          {
            "reference": "Organization/95b31946-1bac-4642-b0a7-174114e30888"
          },
          {
            "reference": "Practitioner/e00cefb5-8058-46b6-a470-b1b4246d8492"
          }
        ],
        "content": [
          {
            "attachment": {
              "contentType": "application/pdf",
              "data": "",
              "url": "file:///8088450656.BRANCHA.MEDCER.MEDCER001.123.pdf.201000000001.20231023000000",
              "title": "Sick leave certificate",
              "creation": "2023-10-22T00:00:00.000+08:00"
            }
          }
        ],
        "context": {
          "encounter": [
            {
              "reference": "Encounter/169281c8-fb76-4e9c-b30f-3dfb3a7f53f2"
            }
          ],
          "period": {
            "start": "2023-10-22T00:00:00.000+08:00",
            "end": "2023-10-22T00:00:00.000+08:00"
          }
        }
      }
    },
    {
      "fullUrl": "Patient/d58dd75b-cf09-4a1c-b913-c9e867f27616",
      "resource": {
        "resourceType": "Patient",
        "id": "d58dd75b-cf09-4a1c-b913-c9e867f27616",
        "identifier": [
          {
            "type": {
              "coding": [
                {
                  "system": "https://ehealth.gov.hk/FHIR/typeofID-ext",
                  "code": "EHRNO"
                }
              ]
            },
            "value": "201000000001"
          },
          {
            "type": {
              "coding": [
                {
                  "system": "https://ehealth.gov.hk/FHIR/typeofID-ext",
                  "code": "ID"
                }
              ]
            },
            "value": "Q1730351"
          }
        ],
        "active": true,
        "name": [
          {
            "use": "official",
            "text": "CHAN, MAN MAN",
            "family": "CHAN",
            "given": [
              "MAN MAN"
            ]
          }
        ],
        "gender": "female",
        "birthDate": "1974-12-25"
      }
    },
    {
      "fullUrl": "Organization/95b31946-1bac-4642-b0a7-174114e30888",
      "resource": {
        "resourceType": "Organization",
        "id": "95b31946-1bac-4642-b0a7-174114e30888",
        "identifier": [
          {
            "system": "https://ehealth.gov.hk/FHIR/pvdr",
            "value": "8088450656"
          }
        ],
        "name": "Hong Kong Hospital",
        "alias": [
          "HKH"
        ]
      }
    },
    {
      "fullUrl": "Practitioner/e00cefb5-8058-46b6-a470-b1b4246d8492",
      "resource": {
        "resourceType": "Practitioner",
        "id": "e00cefb5-8058-46b6-a470-b1b4246d8492",
        "extension": [
          {
            "url": "https://ehealth.gov.hk/FHIR/1009110-IssuedByHCStaffChineseName",
            "valueString": "陳大文教授"
          }
        ],
        "name": [
          {
            "text": "Dr. Chan Tai Man"
          }
        ]
      }
    },
    {
      "fullUrl": "Encounter/169281c8-fb76-4e9c-b30f-3dfb3a7f53f2",
      "resource": {
        "resourceType": "Encounter",
        "id": "169281c8-fb76-4e9c-b30f-3dfb3a7f53f2",
        "extension": [
          {
            "url": "https://ehealth.gov.hk/FHIR/99999999-AttendanceInstIdentifier",
            "valueString": "1234567891"
          }
        ],
        "identifier": [
          {
            "system": "https://ehealth.gov.hk/FHIR/HCP/local/EpisodeNum",
            "value": "OP123456"
          }
        ],
        "status": "finished",
        "class": {
          "system": "https://ehealth.gov.hk/FHIR/class",
          "code": "UNKNOWN",
          "display": "Unknown status"
        }
      }
    }
  ]
}
