{
  "resourceType": "Bundle",
  "id": "c76097bd-5532-4d38-99e8-144778473e8d",
  "identifier": {
    "system": "urn:ietf:rfc:4122",
    "value": "d2f9f649-5555-4826-868b-84e015c1f1be"
  },
  "type": "document",
  "timestamp": "2023-10-27T08:00:00.000+08:00",
  "entry": [
    {
      "fullUrl": "Composition/30551ce1-5a28-4356-b684-1e639094ad4d",
      "resource": {
        "resourceType": "Composition",
        "id": "30551ce1-5a28-4356-b684-1e639094ad4d",
        "identifier": {
          "system": "urn:oid:2.16.724.4.8.10.200.10",
          "value": "3f69e0a5-2177-4540-baab-7a5d0877428f"
        },
        "status": "final",
        "type": {
          "coding": [
            {
              "system": "https://ehealth.gov.hk/FHIR",
              "display": "Hong Kong eHR Healthcare Document"
            }
          ],
          "text": "Hong Kong eHR Healthcare Document"
        },
        "subject": {
          "reference": "Patient/d58dd75b-cf09-4a1c-b913-c9e867f27616"
        },
        "date": "2023-10-27T08:00:00.000+08:00",
        "author": [
          {
            "reference": "Organization/3b3703a9-7a26-427c-9352-4e41f046d85e"
          }
        ],
        "title": "Hong Kong eHR Healthcare Document",
        "section": [
          {
            "title": "Referral Records",
            "code": {
              "coding": [
                {
                  "system": "https://ehealth.gov.hk/FHIR/datadomain",
                  "code": "REF",
                  "display": "Referral Records"
                }
              ],
              "text": "Referral Records"
            },
            "entry": [
              {
                "extension": [
                  {
                    "url": "https://ehealth.gov.hk/FHIR/99999999-RecordCreateDatetime",
                    "valueDateTime": "2023-10-27T08:00:00.000+08:00"
                  },
                  {
                    "url": "https://ehealth.gov.hk/FHIR/99999999-RecordCreateInstIdentifier",
                    "valueString": "8840188537"
                  },
                  {
                    "url": "https://ehealth.gov.hk/FHIR/99999999-RecordLastUpdateDatetime",
                    "valueDateTime": "2023-10-27T08:00:00.000+08:00"
                  },
                  {
                    "url": "https://ehealth.gov.hk/FHIR/99999999-RecordUpdateInstIdentifier",
                    "valueString": "8840188537"
                  },
                  {
                    "url": "https://ehealth.gov.hk/FHIR/99999999-RecordUpdateInstName",
                    "valueString": "Hong Kong Hospital"
                  },
                  {
                    "url": "https://ehealth.gov.hk/FHIR/99999999-TransactionDateTime",
                    "valueDateTime": "2023-10-27T08:00:00.000+08:00"
                  },
                  {
                    "url": "https://ehealth.gov.hk/FHIR/99999999-TransactonType",
                    "valueString": "U"
                  },
                  {
                    "url": "https://ehealth.gov.hk/FHIR/99999999-LastUpdateDateTime",
                    "valueDateTime": "2023-10-27T08:00:00.000+08:00"
                  },
                  {
                    "url": "https://ehealth.gov.hk/FHIR/99999999-ComplianceLevel",
                    "valueString": "1"
                  },
                  {
                    "url": "https://ehealth.gov.hk/FHIR/99999999-DomainVersion",
                    "valueString": "eHRSS-1.1.0"
                  },
                  {
                    "url": "https://ehealth.gov.hk/FHIR/99999999-UploadMode",
                    "valueString": "NBL"
                  },
                  {
                    "url": "https://ehealth.gov.hk/FHIR/99999999-SendingLocation",
                    "valueString": "BRANCHA"
                  }
                ],
                "reference": "ServiceRequest/1832473e-2fe0-452d-abe9-3cdb9879522f",
                "identifier": {
                  "system": "https://ehealth.gov.hk/FHIR/HCP/local/Recordkey",
                  "value": "REF-001"
                }
              }
            ]
          }
        ]
      }
    },
    {
      "fullUrl": "Organization/3b3703a9-7a26-427c-9352-4e41f046d85e",
      "resource": {
        "resourceType": "Organization",
        "id": "3b3703a9-7a26-427c-9352-4e41f046d85e",
        "identifier": [
          {
            "system": "https://ehealth.gov.hk/FHIR/pvdr",
            "value": "8840188537"
          }
        ],
        "name": "Hong Kong Hospital",
        "alias": [
          "HKH"
        ]
      }
    },
    {
      "fullUrl": "ServiceRequest/1832473e-2fe0-452d-abe9-3cdb9879522f",
      "resource": {
        "resourceType": "ServiceRequest",
        "id": "1832473e-2fe0-452d-abe9-3cdb9879522f",
        "extension": [
          {
            "url": "https://ehealth.gov.hk/FHIR/1003361-TypeOfReferralCode",
            "valueString": "Request"
          },
          {
            "url": "https://ehealth.gov.hk/FHIR/1003362-TypeOfReferralDesc",
            "valueString": "Request referral"
          },
          {
            "url": "https://ehealth.gov.hk/FHIR/1003363-TypeOfReferralLocalDesc",
            "valueString": "Request referral"
          }
        ],
        "identifier": [
          {
            "system": "https://ehealth.gov.hk/FHIR/HCP/local/RefDocReferralNo",
            "value": "125600"
          }
        ],
        "status": "completed",
        "intent": "proposal",
        "subject": {
          "reference": "Patient/d58dd75b-cf09-4a1c-b913-c9e867f27616"
        },
        "encounter": {
          "reference": "Encounter/169281c8-fb76-4e9c-b30f-3dfb3a7f53f2"
        },
        "authoredOn": "2023-10-27T08:00:00.000+08:00",
        "requester": {
          "reference": "PractitionerRole/4037da57-d98b-400b-93fe-3d918f6aa7c8"
        },
        "performer": [
          {
            "reference": "PractitionerRole/8f588cd6-6c17-4ad6-9255-106ccba45b53"
          }
        ],
        "supportingInfo": [
          {
            "reference": "DocumentReference/94c026f3-10a2-4db3-9b57-ba874e42e52b"
          }
        ]
      }
    },
    {
      "fullUrl": "PractitionerRole/4037da57-d98b-400b-93fe-3d918f6aa7c8",
      "resource": {
        "resourceType": "PractitionerRole",
        "id": "4037da57-d98b-400b-93fe-3d918f6aa7c8",
        "practitioner": {
          "reference": "Practitioner/8d46812c-4345-45ca-b9ff-ec325816c416"
        },
        "organization": {
          "reference": "Organization/afeae3fd-7b0b-4d51-a683-d4668cf9d9fa"
        },
        "specialty": [
          {
            "coding": [
              {
                "system": "https://ehealth.gov.hk/FHIR/InssuanceSpecialtyDesc",
                "code": "MED",
                "display": "Internal Medicine"
              }
            ],
            "text": "Medical"
          }
        ]
      }
    },
    {
      "fullUrl": "PractitionerRole/8f588cd6-6c17-4ad6-9255-106ccba45b53",
      "resource": {
        "resourceType": "PractitionerRole",
        "id": "8f588cd6-6c17-4ad6-9255-106ccba45b53",
        "practitioner": {
          "reference": "Practitioner/c2277753-9f90-4a95-8ddb-a0b3f6e7d292"
        },
        "organization": {
          "reference": "Organization/2b90dd2b-2dab-4c75-9bb9-a355e07401e8"
        },
        "specialty": [
          {
            "coding": [
              {
                "system": "https://ehealth.gov.hk/FHIR/RecipientHCSpecialtyDesc",
                "code": "SUR",
                "display": "General Surgery"
              }
            ],
            "text": "Surgical"
          }
        ]
      }
    },
    {
      "fullUrl": "Organization/afeae3fd-7b0b-4d51-a683-d4668cf9d9fa",
      "resource": {
        "resourceType": "Organization",
        "id": "afeae3fd-7b0b-4d51-a683-d4668cf9d9fa",
        "identifier": [
          {
            "system": "https://ehealth.gov.hk/FHIR/pvdr",
            "value": "7356971190"
          }
        ],
        "name": "Branch A",
        "alias": [
          "Branch A"
        ],
        "partOf": {
          "reference": "Organization/c3cdb0dd-9b20-4a14-82bc-3facb3da18f7"
        }
      }
    },
    {
      "fullUrl": "Organization/c3cdb0dd-9b20-4a14-82bc-3facb3da18f7",
      "resource": {
        "resourceType": "Organization",
        "id": "c3cdb0dd-9b20-4a14-82bc-3facb3da18f7",
        "identifier": [
          {
            "type": {
              "coding": [
                {
                  "code": "HCP"
                }
              ]
            },
            "system": "https://ehealth.gov.hk/FHIR/pvdr",
            "value": "8088450656"
          }
        ],
        "name": "Hong Kong Hospital",
        "alias": [
          "Hong Kong Hospital"
        ]
      }
    },
    {
      "fullUrl": "Organization/2b90dd2b-2dab-4c75-9bb9-a355e07401e8",
      "resource": {
        "resourceType": "Organization",
        "id": "2b90dd2b-2dab-4c75-9bb9-a355e07401e8",
        "identifier": [
          {
            "type": {
              "coding": [
                {
                  "code": "HCI"
                }
              ]
            },
            "system": "https://ehealth.gov.hk/FHIR/pvdr",
            "value": "9999999800"
          }
        ],
        "name": "Clinic  A",
        "alias": [
          "Clinic  A"
        ],
        "partOf": {
          "reference": "Organization/c87bf51c-e53c-4bfe-b8b7-aa62bdd93002"
        }
      }
    },
    {
      "fullUrl": "Organization/c87bf51c-e53c-4bfe-b8b7-aa62bdd93002",
      "resource": {
        "resourceType": "Organization",
        "id": "c87bf51c-e53c-4bfe-b8b7-aa62bdd93002",
        "identifier": [
          {
            "type": {
              "coding": [
                {
                  "code": "HCP"
                }
              ]
            },
            "system": "https://ehealth.gov.hk/FHIR/pvdr",
            "value": "9907819043"
          }
        ],
        "name": "Hospital  A",
        "alias": [
          "Hospital  A"
        ]
      }
    },
    {
      "fullUrl": "Practitioner/8d46812c-4345-45ca-b9ff-ec325816c416",
      "resource": {
        "resourceType": "Practitioner",
        "id": "8d46812c-4345-45ca-b9ff-ec325816c416",
        "extension": [
          {
            "url": "https://ehealth.gov.hk/FHIR/1003471-IssuehealthcarestaffChinesename",
            "valueString": "陳大文醫生"
          }
        ],
        "identifier": [
          {
            "value": "8888800000"
          }
        ],
        "name": [
          {
            "text": "Dr. Chan Tai Man"
          }
        ]
      }
    },
    {
      "fullUrl": "Practitioner/c2277753-9f90-4a95-8ddb-a0b3f6e7d292",
      "resource": {
        "resourceType": "Practitioner",
        "id": "c2277753-9f90-4a95-8ddb-a0b3f6e7d292",
        "extension": [
          {
            "url": "https://ehealth.gov.hk/FHIR/1003481-RechealthcarestaffChinesename",
            "valueString": "黃大衛醫生"
          }
        ],
        "identifier": [
          {
            "value": "9999900000"
          }
        ],
        "name": [
          {
            "text": "Dr. David Wong"
          }
        ]
      }
    },
    {
      "fullUrl": "DocumentReference/94c026f3-10a2-4db3-9b57-ba874e42e52b",
      "resource": {
        "resourceType": "DocumentReference",
        "id": "94c026f3-10a2-4db3-9b57-ba874e42e52b",
        "extension": [
          {
            "url": "https://ehealth.gov.hk/FHIR/1003367-ReferralReportText",
            "valueString": "N/A"
          },
          {
            "url": "https://ehealth.gov.hk/FHIR/1003368-ReferralRemarks",
            "valueString": "N/A"
          }
        ],
        "status": "current",
        "content": [
          {
            "attachment": {
              "contentType": "application/pdf",
              "data": "",
              "url": "file:///8088450656.BRANCHA.REF.REF-001.123.pdf.201000000001.20231027080000",
              "title": "Surgical Referral",
              "creation": "2023-10-22T00:00:00.000+08:00"
            }
          }
        ],
        "context": {
          "encounter": [
            {
              "reference": "Encounter/169281c8-fb76-4e9c-b30f-3dfb3a7f53f2"
            }
          ],
          "period": {
            "start": "2023-01-31T00:00:00.000+08:00",
            "end": "2023-02-01T00:00:00.000+08:00"
          }
        }
      }
    },
    {
      "fullUrl": "Patient/d58dd75b-cf09-4a1c-b913-c9e867f27616",
      "resource": {
        "resourceType": "Patient",
        "id": "d58dd75b-cf09-4a1c-b913-c9e867f27616",
        "identifier": [
          {
            "type": {
              "coding": [
                {
                  "system": "https://ehealth.gov.hk/FHIR/typeofID-ext",
                  "code": "EHRNO"
                }
              ]
            },
            "value": "201000000001"
          },
          {
            "type": {
              "coding": [
                {
                  "system": "https://ehealth.gov.hk/FHIR/typeofID-ext",
                  "code": "ID"
                }
              ]
            },
            "value": "Q1730351"
          }
        ],
        "active": true,
        "name": [
          {
            "use": "official",
            "text": "CHAN, MAN MAN",
            "family": "CHAN",
            "given": [
              "MAN MAN"
            ]
          }
        ],
        "gender": "female",
        "birthDate": "1974-12-25"
      }
    },
    {
      "fullUrl": "Encounter/169281c8-fb76-4e9c-b30f-3dfb3a7f53f2",
      "resource": {
        "resourceType": "Encounter",
        "id": "169281c8-fb76-4e9c-b30f-3dfb3a7f53f2",
        "extension": [
          {
            "url": "https://ehealth.gov.hk/FHIR/99999999-AttendanceInstIdentifier",
            "valueString": "1234567891"
          }
        ],
        "identifier": [
          {
            "system": "https://ehealth.gov.hk/FHIR/HCP/local/EpisodeNum",
            "value": "OP123456"
          }
        ],
        "status": "finished",
        "class": {
          "system": "https://ehealth.gov.hk/FHIR/class",
          "code": "UNKNOWN",
          "display": "Unknown status"
        }
      }
    }
  ]
}
