{
  "resourceType": "Bundle",
  "id": "a78c004b-7335-46bc-a13b-6f001380358c",
  "identifier": {
    "system": "urn:ietf:rfc:4122",
    "value": "d2f9f649-5555-4826-868b-84e015c1f1be"
  },
  "type": "document",
  "timestamp": "2017-12-11T14:30:00.999+08:00",
  "entry": [
    {
      "fullUrl": "Composition/30551ce1-5a28-4356-b684-1e639094ad4d",
      "resource": {
        "resourceType": "Composition",
        "id": "30551ce1-5a28-4356-b684-1e639094ad4d",
        "identifier": {
          "system": "urn:oid:2.16.724.4.8.10.200.10",
          "value": "3f69e0a5-2177-4540-baab-7a5d0877428f"
        },
        "status": "final",
        "type": {
          "coding": [
            {
              "system": "https://ehealth.gov.hk/FHIR",
              "display": "Hong Kong eHR Healthcare Document"
            }
          ],
          "text": "Hong Kong eHR Healthcare Document"
        },
        "subject": {
          "reference": "Patient/d58dd75b-cf09-4a1c-b913-c9e867f27616"
        },
        "date": "2023-10-22T16:30:05.005+08:00",
        "author": [
          {
            "reference": "Organization/4037da57-d98b-400b-93fe-3d918f6aa7c8"
          }
        ],
        "title": "Hong Kong eHR Healthcare Document",
        "section": [
          {
            "title": "Investigation Report Records",
            "code": {
              "coding": [
                {
                  "system": "https://ehealth.gov.hk/FHIR/datadomain",
                  "code": "INVR",
                  "display": "Investigation Report Records"
                }
              ],
              "text": "Investigation Report Records"
            },
            "entry": [
              {
                "extension": [
                  {
                    "url": "https://ehealth.gov.hk/FHIR/99999999-TransactionDateTime",
                    "valueDateTime": "2023-10-22T15:30:05.005+08:00"
                  },
                  {
                    "url": "https://ehealth.gov.hk/FHIR/99999999-TransactonType",
                    "valueString": "I"
                  },
                  {
                    "url": "https://ehealth.gov.hk/FHIR/99999999-LastUpdateDateTime",
                    "valueDateTime": "2023-10-22T15:30:05.005+08:00"
                  },
                  {
                    "url": "https://ehealth.gov.hk/FHIR/99999999-ComplianceLevel",
                    "valueString": "1"
                  },
                  {
                    "url": "https://ehealth.gov.hk/FHIR/99999999-UploadMode",
                    "valueString": "NBL"
                  },
                  {
                    "url": "https://ehealth.gov.hk/FHIR/99999999-SendingLocation",
                    "valueString": "BRANCHA"
                  },
                  {
                    "url": "https://ehealth.gov.hk/FHIR/99999999-RecordCreateDatetime",
                    "valueDateTime": "2023-10-22T15:30:05.005+08:00"
                  },
                  {
                    "url": "https://ehealth.gov.hk/FHIR/99999999-RecordCreateInstIdentifier",
                    "valueString": "8088450656"
                  },
                  {
                    "url": "https://ehealth.gov.hk/FHIR/99999999-RecordCreateInstName",
                    "valueString": "Hong Kong Hospital"
                  },
                  {
                    "url": "https://ehealth.gov.hk/FHIR/99999999-RecordLastUpdateDatetime",
                    "valueDateTime": "2023-10-22T15:30:05.005+08:00"
                  },
                  {
                    "url": "https://ehealth.gov.hk/FHIR/99999999-RecordUpdateInstIdentifier",
                    "valueString": "8840188537"
                  },
                  {
                    "url": "https://ehealth.gov.hk/FHIR/99999999-RecordUpdateInstName",
                    "valueString": "Hong Kong Hospital"
                  }
                ],
                "reference": "DocumentReference/1832473e-2fe0-452d-abe9-3cdb9879522f",
                "identifier": {
                  "system": "https://ehealth.gov.hk/FHIR/HCP/local/Recordkey",
                  "value": "INVR-001"
                }
              }
            ]
          }
        ]
      }
    },
    {
      "fullUrl": "Organization/4037da57-d98b-400b-93fe-3d918f6aa7c8",
      "resource": {
        "resourceType": "Organization",
        "id": "4037da57-d98b-400b-93fe-3d918f6aa7c8",
        "identifier": [
          {
            "system": "https://ehealth.gov.hk/FHIR/pvdr",
            "value": "8840188537"
          }
        ],
        "name": "Hong Kong Hospital",
        "alias": [
          "HKH"
        ]
      }
    },
    {
      "fullUrl": "DocumentReference/1832473e-2fe0-452d-abe9-3cdb9879522f",
      "resource": {
        "resourceType": "DocumentReference",
        "id": "1832473e-2fe0-452d-abe9-3cdb9879522f",
        "extension": [
          {
            "url": "https://ehealth.gov.hk/FHIR/1003594-INVRRemarks",
            "valueString": "def"
          },
          {
            "url": "https://ehealth.gov.hk/FHIR/1003592-INVRreportText",
            "valueString": "N/A"
          }
        ],
        "identifier": [
          {
            "system": "https://ehealth.gov.hk/FHIR/HCP/local/ReferralNo",
            "value": "20150001"
          }
        ],
        "status": "current",
        "type": {
          "coding": [
            {
              "code": "102103"
            }
          ]
        },
        "date": "2023-10-22T15:30:05.005+08:00",
        "description": "Cardiac",
        "content": [
          {
            "attachment": {
              "contentType": "application/pdf",
              "data": "",
              "url": "file:///8088450656.BRANCHA.INVR.INVR-001.123.pdf.201000000001.20231022163005",
              "title": "Echocardiogram Report",
              "creation": "2023-01-31T00:00:00.000+08:00"
            }
          }
        ],
        "context": {
          "encounter": [
            {
              "reference": "Encounter/169281c8-fb76-4e9c-b30f-3dfb3a7f53f2"
            }
          ],
          "period": {
            "start": "2023-01-31T00:00:00.000+08:00",
            "end": "2023-02-01T00:00:00.000+08:00"
          }
        }
      }
    },
    {
      "fullUrl": "Patient/d58dd75b-cf09-4a1c-b913-c9e867f27616",
      "resource": {
        "resourceType": "Patient",
        "id": "d58dd75b-cf09-4a1c-b913-c9e867f27616",
        "meta": {
          "versionId": "1",
          "lastUpdated": "2022-09-27T15:22:49.093+00:00"
        },
        "identifier": [
          {
            "type": {
              "coding": [
                {
                  "system": "https://ehealth.gov.hk/FHIR/typeofID-ext",
                  "code": "EHRNO"
                }
              ]
            },
            "value": "12345680880"
          },
          {
            "type": {
              "coding": [
                {
                  "system": "https://ehealth.gov.hk/FHIR/typeofID-ext",
                  "code": "ID"
                }
              ]
            },
            "value": "Q1730351"
          }
        ],
        "active": true,
        "name": [
          {
            "use": "official",
            "text": "CHAN, MAN MAN",
            "family": "CHAN",
            "given": [
              "MAN MAN"
            ]
          }
        ],
        "gender": "female",
        "birthDate": "1974-12-25"
      }
    },
    {
      "fullUrl": "Encounter/169281c8-fb76-4e9c-b30f-3dfb3a7f53f2",
      "resource": {
        "resourceType": "Encounter",
        "id": "169281c8-fb76-4e9c-b30f-3dfb3a7f53f2",
        "extension": [
          {
            "url": "https://ehealth.gov.hk/FHIR/99999999-AttendanceInstIdentifier",
            "valueString": "1234567891"
          }
        ],
        "identifier": [
          {
            "system": "https://ehealth.gov.hk/FHIR/HCP/local/EpisodeNum",
            "value": "OP123456"
          }
        ],
        "status": "finished",
        "class": {
          "system": "https://ehealth.gov.hk/FHIR/class",
          "code": "UNKNOWN",
          "display": "Unknown status"
        }
      }
    }
  ]
}
